File: pencil_electrode_first (Copy).csv
Wavelength [nm],Intensity (a.u)
181.232,367.98
181.919,141.236
182.607,174.998
183.294,82.8134
183.981,119.696
184.668,31.1664
185.355,143.994
186.043,-64.4419
186.730,201.451
187.417,-5.11581
188.104,35.2423
188.791,21.2081
189.478,-106.597
190.165,-0.966935
190.851,17.7129
191.538,124.829
192.225,104.07
192.912,245.805
193.599,283.298
194.285,-17.4824
194.972,203.461
195.659,162.972
196.345,168.215
197.032,94.3312
197.718,70.1612
198.405,-58.6827
199.091,168.507
199.777,-43.2423
200.464,45.9971
201.150,-33.3196
201.836,119.736
202.523,154.069
203.209,177.904
203.895,-56.0817
204.581,111.124
205.267,240.309
205.953,156.303
206.639,-52.9234
207.325,31.9154
208.011,-150.759
208.697,-16.2475
209.383,20.114
210.069,67.6556
210.755,10.7635
211.440,201.774
212.126,12.0304
212.812,191.678
213.497,228.464
214.183,261.659
214.868,90.0692
215.554,97.6752
216.239,-38.1743
216.925,25.3969
217.610,-38.394
218.296,148.129
218.981,-132.234
219.666,84.4379
220.351,289.82
221.037,358.777
221.722,73.0289
222.407,223.356
223.092,-3.45492
223.777,216.885
224.462,198.733
225.147,124.747
225.832,217.038
226.517,274.274
227.202,7.67245
227.887,51.5733
228.571,-126.77
229.256,59.0463
229.941,14.2401
230.626,75.3145
231.310,250.84
231.995,292.251
232.679,30.086
233.364,428.84
234.048,121.828
234.733,219.38
235.417,399.346
236.102,350.462
236.786,-35.4287
237.470,128.066
238.154,-68.0159
238.839,184.703
239.523,235.107
240.207,287.354
240.891,-6.17922
241.575,398.088
242.259,-21.2907
242.943,242.762
243.627,208.569
244.311,171.896
244.995,102.753
245.679,381.362
246.362,451.385
247.046,305.988
247.730,128.043
248.414,161.883
249.097,5.65709
249.781,304.512
250.464,15.7447
251.148,163.015
251.831,141.86
252.515,54.8439
253.198,18.7086
253.881,115.208
254.565,82.6912
255.248,246.536
255.931,168.455
256.614,112.059
257.298,101.043
257.981,254.66
258.664,-80.5438
259.347,101.614
260.030,184.468
260.713,195.889
261.396,68.9225
262.079,170.322
262.761,68.6269
263.444,128.642
264.127,52.2076
264.810,36.7803
265.492,155.791
266.175,392.598
266.858,228.207
267.540,88.5198
268.223,-99.204
268.905,99.0752
269.588,4.33243
270.270,162.941
270.952,150.91
271.635,202.057
272.317,65.6703
272.999,223.558
273.681,11.8025
274.364,229.53
275.046,-16.2329
275.728,191.592
276.410,301.803
277.092,545.241
277.774,138.128
278.456,427.171
279.138,293.777
279.820,365.547
280.501,335.89
281.183,411.512
281.865,336.648
282.546,447.813
283.228,333.722
283.910,280.651
284.591,74.039
285.273,311.618
285.954,191.26
286.636,371.53
287.317,329.815
287.999,483.687
288.680,66.3709
289.361,272.265
290.042,-43.3494
290.724,109.038
291.405,74.8668
292.086,354.507
292.767,359.074
293.448,574.584
294.129,1246.01
294.810,2410.95
295.491,3638.69
296.172,4172.75
296.853,4057.57
297.533,3372.73
298.214,1374.21
298.895,365.35
299.576,84.7621
300.256,251.822
300.937,256.468
301.617,225.785
302.298,260.847
302.978,433.215
303.659,416.045
304.339,289.677
305.019,157.384
305.700,327.288
306.380,496.528
307.060,691.672
307.740,712.693
308.421,1526.42
309.101,1681.09
309.781,2470.41
310.461,3497.75
311.141,4924.14
311.821,5927.92
312.501,8774.48
313.180,12163.1
313.860,13252.5
314.540,16018.7
315.220,24567.5
315.899,23498.5
316.579,8880.87
317.259,934.978
317.938,633.379
318.618,376.077
319.297,317.997
319.977,126.882
320.656,369.458
321.336,287.039
322.015,423.005
322.694,460.003
323.373,357.615
324.053,252.169
324.732,515.767
325.411,375.18
326.090,683.422
326.769,690.147
327.448,1040.98
328.127,1158.24
328.806,941.559
329.485,656.531
330.163,788.346
330.842,1284.34
331.521,1739.67
332.200,1617.86
332.878,2374.34
333.557,3876.55
334.236,7217.2
334.914,14095.9
335.593,27523.2
336.271,44907.6
336.949,49626.1
337.628,28734.2
338.306,8905.12
338.984,4252.55
339.663,2913.51
340.341,2097.87
341.019,1197.66
341.697,1019.29
342.375,1292.13
343.053,923.786
343.731,601.744
344.409,498.851
345.087,683.063
345.765,654.995
346.443,854.62
347.121,840.839
347.798,990.1
348.476,1070.11
349.154,1654.5
349.831,1849.86
350.509,1997.2
351.186,2523.91
351.864,4749.62
352.541,7707.98
353.219,11281.7
353.896,10526.6
354.573,7599.98
355.251,9325.2
355.928,15553.5
356.605,25779.6
357.282,36165.9
357.959,30442.2
358.636,10826.5
359.313,3189.12
359.990,2229.73
360.667,1439.29
361.344,1257.18
362.021,823.656
362.698,886.152
363.375,662.582
364.051,883.507
364.728,931.304
365.405,1130.77
366.081,1064.69
366.758,1247.62
367.434,1232.79
368.111,831.986
368.787,1097.42
369.463,2144.93
370.140,3597.36
370.816,4350.84
371.492,2778.67
372.169,1422.2
372.845,2185.29
373.521,4214.8
374.197,7013.96
374.873,10940.9
375.549,10612.7
376.225,4626.56
376.901,1823.68
377.577,3156.99
378.253,5255.08
378.928,9395.69
379.604,15367.5
380.280,17972.1
380.955,9221.92
381.631,1519.18
382.307,444.881
382.982,444.158
383.658,366.579
384.333,558.504
385.008,556.179
385.684,572.167
386.359,388.191
387.034,383.67
387.709,678.042
388.385,1060.77
389.060,1293.86
389.735,1175.86
390.410,982.881
391.085,1187.81
391.760,1203.57
392.435,1188.7
393.110,1707.66
393.784,2768.11
394.459,2133.7
395.134,774.035
395.809,181.885
396.483,727.291
397.158,1099.38
397.832,2140.69
398.507,3118
399.181,5023.98
399.856,4488.56
400.530,1703.45
401.205,450.967
401.879,711.958
402.553,923.598
403.227,1209.63
403.902,1922.66
404.576,3136.08
405.250,4738.68
405.924,4386.55
406.598,1672.15
407.272,654.958
407.946,181.601
408.620,336.692
409.293,294.682
409.967,140.25
410.641,115.835
411.315,257.052
411.988,304.358
412.662,443.175
413.335,497.467
414.009,610.665
414.682,247.905
415.356,17.5225
416.029,-54.1107
416.702,352.76
417.376,339.596
418.049,497.904
418.722,748.917
419.395,953.51
420.068,1065.46
420.742,553.408
421.415,76.37
422.088,388.552
422.760,349.473
423.433,614.885
424.106,472.59
424.779,840.889
425.452,1115.54
426.124,1536
426.797,1481.85
427.470,858.148
428.142,318.807
428.815,253.094
429.487,304.637
430.160,303.981
430.832,151.528
431.505,224.436
432.177,553.075
432.849,764.79
433.521,731.16
434.194,1282.74
434.866,866.32
435.538,232.158
436.210,282.865
436.882,231.873
437.554,19.2313
438.226,409.04
438.898,372.329
439.569,307.11
440.241,105.59
440.913,158.932
441.584,191.3
442.256,154.908
442.928,148.937
443.599,238.122
444.271,158.453
444.942,317.163
445.614,233.93
446.285,219.515
446.956,102.445
447.628,447.539
448.299,301.754
448.970,514.224
449.641,-42.3017
450.312,30.4475
450.983,2.39513
451.654,184.314
452.325,243.616
452.996,218.138
453.667,159.667
454.338,273.437
455.009,314.298
455.679,318.413
456.350,167.915
457.021,440.216
457.691,180.161
458.362,84.6246
459.032,-67.9516
459.703,163.925
460.373,238.758
461.044,231.089
461.714,263.041
462.384,308.304
463.054,121.79
463.725,294.336
464.395,261.877
465.065,315.851
465.735,315.494
466.405,218.088
467.075,246.447
467.745,465.681
468.415,-9.33423
469.084,68.4352
469.754,35.8587
470.424,61.4423
471.094,25.3577
471.763,245.869
472.433,142.876
473.102,439.942
473.772,116.136
474.441,274.398
475.111,165.423
475.780,280.16
476.449,242.197
477.119,410.8
477.788,284.949
478.457,190.626
479.126,303.316
479.795,213.927
480.464,299.508
481.133,358.536
481.802,16.7071
482.471,157.981
483.140,54.9169
483.809,306.309
484.478,57.1357
485.146,221.182
485.815,203.918
486.484,284.758
487.152,98.2977
487.821,374.669
488.489,67.1055
489.158,251.662
489.826,25.5653
490.494,158.266
491.163,135.588
491.831,400.209
492.499,22.357
493.167,109.612
493.835,184.396
494.503,297.655
495.171,-14.2309
495.839,-5.87498
496.507,123.024
497.175,344.787
497.843,82.6289
498.511,225.986
499.179,78.224
499.846,253.774
500.514,97.4678
501.181,105.659
501.849,130.14
502.517,238.34
503.184,249.486
503.851,352.318
504.519,5.78808
505.186,116.036
505.853,65.3288
506.521,162.485
507.188,85.0723
507.855,142.368
508.522,223.54
509.189,349.741
509.856,56.7012
510.523,57.3984
511.190,74.1185
511.857,249.28
512.523,70.7751
513.190,395.435
513.857,403.112
514.523,193.327
515.190,-85.0804
515.857,208.344
516.523,-0.457813
517.190,143.782
517.856,-60.4275
518.522,380.876
519.189,214.27
519.855,222.405
520.521,111.72
521.187,351.983
521.854,259.511
522.520,313.566
523.186,380.097
523.852,366.029
524.518,-26.0016
525.183,180.706
525.849,284.122
526.515,639.818
527.181,49.3599
527.847,240.394
528.512,183.906
529.178,395.9
529.843,93.8647
530.509,81.2661
531.174,-31.9819
531.840,424.416
532.505,287.842
533.170,232.566
533.836,33.3463
534.501,198.938
535.166,71.0547
535.831,434.054
536.496,189.656
537.161,145.391
537.826,-55.092
538.491,332.682
539.156,68.0164
539.821,365.724
540.486,104.256
541.151,173.846
541.815,74.6846
542.480,218.543
543.145,163.017
543.809,378.179
544.474,181.778
545.138,255.413
545.802,56.0345
546.467,186.233
547.131,180.753
547.795,183.092
548.460,126.024
549.124,363.651
549.788,169.444
550.452,241.111
551.116,211.126
551.780,427.365
552.444,152.791
553.108,262.98
553.772,195.131
554.435,164.261
555.099,146.795
555.763,285.305
556.426,170.298
557.090,263.387
557.754,165.046
558.417,254.927
559.080,-32.3232
559.744,198.86
560.407,150.874
561.071,207.15
561.734,159.311
562.397,318.382
563.060,114.749
563.723,263.283
564.386,296.687
565.049,155.09
565.712,123.225
566.375,357.98
567.038,269.49
567.701,130.873
568.364,24.8481
569.026,224.398
569.689,-75.7266
570.352,-3.09612
571.014,-94.7895
571.677,133.061
572.339,70.9548
573.001,262.541
573.664,111.902
574.326,236.852
574.988,57.8033
575.651,181.464
576.313,157.651
576.975,461.176
577.637,66.2126
578.299,174.742
578.961,163.988
579.623,308.091
580.285,65.979
580.947,141.648
581.608,45.83
582.270,243.693
582.932,175.497
583.593,509.122
584.255,145.414
584.916,262.641
585.578,157.612
586.239,391.873
586.901,236.687
587.562,329.443
588.223,100.911
588.885,168.007
589.546,-155.628
590.207,260.235
590.868,236.119
591.529,312.136
592.190,123.692
592.851,107.317
593.512,-89.8042
594.173,228.816
594.833,84.525
595.494,130.125
596.155,113.633
596.815,164.272
597.476,172.815
598.137,430.617
598.797,122.118
599.457,270.705
600.118,62.1315
600.778,234.071
601.438,62.7541
602.099,199.092
602.759,52.3664
603.419,228.018
604.079,103.254
604.739,355.69
605.399,140.104
606.059,319.053
606.719,17.7127
607.379,130.293
608.039,7.72719
608.698,196.438
609.358,13.2623
610.018,83.1055
610.677,34.6477
611.337,302.849
611.996,292.8
612.656,154.397
613.315,133.344
613.974,307.642
614.634,182.724
615.293,195.562
615.952,-11.9183
616.611,123.531
617.270,15.9001
617.929,125.766
618.588,131.041
619.247,223.844
619.906,-77.1062
620.565,253.622
621.224,116.436
621.882,157.179
622.541,19.0309
623.200,282.36
623.858,107.803
624.517,161.599
625.175,134.777
625.834,1288.55
626.492,47.6305
627.150,80.0173
627.809,-40.7709
628.467,209.678
629.125,146.752
629.783,161.476
630.441,169.072
631.099,233.361
631.757,20.9725
632.415,-49.7507
633.073,38.6911
633.731,171.181
634.388,213.215
635.046,227.824
635.704,-80.7659
636.361,127.975
637.019,162.479
637.676,149.749
638.334,322.75
638.991,357.942
639.649,75.4143
640.306,118.854
640.963,44.8532
641.620,286.186
642.278,71.8522
642.935,306.185
643.592,159.518
644.249,127.851
644.906,40.8501
645.562,88.5163
646.219,121.849
646.876,140.182
647.533,8.5147
648.190,79.8475
648.846,38.847
649.503,176.513
650.159,223.846
650.816,222.512
651.472,145.178
652.129,246.178
652.785,129.511
653.441,383.843
654.097,160.51
654.753,146.509
655.410,335.508
656.066,278.508
656.722,136.174
657.378,156.507
658.034,176.506
658.689,376.506
659.345,376.505
660.001,404.838
660.657,229.171
661.312,387.837
661.968,172.503
662.623,327.169
663.279,145.836
663.934,136.502
664.590,45.1679
665.245,280.834
665.900,225.834
666.556,510.166
667.211,144.166
667.866,253.165
668.521,282.165
669.176,331.498
669.831,157.497
670.486,243.163
671.141,87.496
671.796,116.829
672.450,39.8283
673.105,271.494
673.760,183.161
674.414,318.16
675.069,207.16
675.723,126.492
676.378,18.1586
677.032,257.825
677.687,207.824
678.341,227.824
678.995,-46.8435
679.649,149.489
680.303,107.822
680.958,252.822
681.612,21.8211
682.266,172.487
682.919,385.82
683.573,310.486
684.227,169.486
684.881,254.152
685.535,96.4846
686.188,330.484
686.842,69.8169
687.495,303.15
688.149,80.8159
688.802,321.482
689.456,100.148
690.109,283.814
690.762,113.814
691.416,59.8133
692.069,-31.5205
692.722,182.146
693.375,25.1451
694.028,89.4779
694.681,-188.856
695.334,32.1435
695.987,44.8097
696.640,93.1425
697.292,61.4753
697.945,95.1415
698.598,16.1409
699.250,287.474
699.903,73.1399
700.555,116.139
701.208,13.4722
701.860,91.1384
702.513,123.471
703.165,342.137
703.817,79.4701
704.469,-42.5304
705.121,-1.86423
705.774,121.469
706.426,158.468
707.077,21.4675
707.729,-26.8663
708.381,285.467
709.033,235.466
709.685,82.7988
710.337,-14.8684
710.988,267.798
711.640,202.464
712.291,150.13
712.943,4.79622
713.594,-12.2043
714.246,7.12851
714.897,129.795
715.548,106.461
716.199,269.127
716.851,168.46
717.502,133.793
718.153,126.792
718.804,169.792
719.455,65.1244
720.106,253.124
720.756,122.123
721.407,225.789
722.058,18.1223
722.709,155.455
723.359,219.121
724.010,226.121
724.660,139.454
725.311,422.786
725.961,210.786
726.612,160.119
727.262,-129.215
727.912,9.11763
728.562,163.45
729.212,112.783
729.863,149.116
730.513,159.782
731.163,85.115
731.812,201.781
732.462,-5.886
733.112,157.78
733.762,184.446
734.412,256.779
735.061,62.7786
735.711,161.778
736.360,97.4442
737.010,231.777
737.659,144.443
738.309,231.109
738.958,103.109
739.607,156.775
740.257,-20.2255
740.906,146.441
741.555,28.4401
742.204,42.1062
742.853,6.43905
743.502,98.4385
744.151,182.438
744.800,261.437
745.448,159.437
746.097,179.77
746.746,111.436
747.394,191.769
748.043,149.768
748.691,189.768
749.340,-67.8995
749.988,225.1
750.637,273.099
751.285,386.099
751.933,233.765
752.581,185.431
753.229,81.0974
753.878,171.43
754.526,115.763
755.173,27.7625
755.821,34.762
756.469,145.428
757.117,149.094
757.765,202.427
758.412,74.7599
759.060,232.759
759.708,182.092
760.355,328.425
761.003,185.091
761.650,226.091
762.297,135.757
762.945,482.09
763.592,191.422
764.239,377.089
764.886,111.755
765.533,177.088
766.180,72.4204
766.827,236.753
767.474,160.086
768.121,121.419
768.768,19.4183
769.415,213.084
770.061,115.084
770.708,198.083
771.355,-4.25042
772.001,263.416
772.648,102.415
773.294,264.748
773.940,150.748
774.587,413.414
775.233,140.746
775.879,195.746
776.525,141.079
777.171,234.745
777.817,29.7444
778.463,69.7439
779.109,76.7434
779.755,198.743
780.401,-47.591
781.047,0.0751387
781.692,-149.925
782.338,45.4074
782.984,21.0736
783.629,273.406
784.275,238.073
784.920,189.739
785.565,117.738
786.211,565.404
786.856,154.737
787.501,283.403
788.146,212.403
788.791,302.069
789.436,44.4017
790.081,33.4012
790.726,19.4007
791.371,210.4
792.016,-31.6003
792.661,119.066
793.305,105.065
793.950,272.731
794.595,19.7309
795.239,119.73
795.884,97.0632
796.528,116.063
797.172,-51.2711
797.817,14.395
798.461,-104.272
799.105,191.061
799.749,36.0601
800.393,141.06
801.037,54.0591
801.681,83.3919
802.325,96.7247
802.969,90.3909
803.613,44.7237
804.256,68.0565
804.900,155.723
805.544,-12.2779
806.187,-64.6117
806.831,40.0544
807.474,-46.9461
808.118,94.72
808.761,-4.28048
809.404,-27.6143
810.047,74.0518
810.691,168.051
811.334,201.384
811.977,271.717
812.620,66.7164
813.263,32.0492
813.906,83.382
814.548,404.382
815.191,264.048
815.834,175.047
816.477,180.047
817.119,184.046
817.762,140.379
818.404,41.0451
819.047,69.7112
819.689,191.377
820.331,45.0435
820.974,107.376
821.616,93.0425
822.258,12.3753
822.900,-9.95854
823.542,109.041
824.184,141.04
824.826,71.3732
825.468,-26.6273
826.110,218.706
826.751,111.705
827.393,113.704
828.035,-25.296
828.676,222.037
829.318,199.036
829.959,230.036
830.601,152.702
831.242,95.7014
831.883,127.034
832.524,86.0337
833.166,135.366
833.807,670.033
834.448,27.0321
835.089,51.3649
835.730,34.6978
836.371,185.697
837.011,40.3634
837.652,155.696
838.293,161.029
838.934,104.362
839.574,-17.972
840.215,56.6941
840.855,-35.3064
841.496,46.6931
842.136,204.359
842.776,145.359
843.417,-35.6418
844.057,11.691
844.697,-158.309
845.337,63.69
845.977,-140.644
846.617,8.35562
847.257,102.688
847.897,192.688
848.536,38.0207
849.176,227.687
849.816,193.02
850.455,196.353
851.095,118.019
851.735,131.351
852.374,-40.9824
853.013,256.35
853.653,208.683
854.292,464.016
854.931,355.349
855.570,277.015
856.209,183.348
856.848,287.681
857.487,132.013
858.126,203.68
858.765,137.346
859.404,201.679
860.043,-10.6553
860.681,236.344
861.320,162.01
861.959,204.343
862.597,71.3427
863.236,123.342
863.874,92.0083
864.512,272.674
865.151,149.341
865.789,310.007
866.427,65.0062
867.065,143.339
867.703,169.005
868.341,214.005
868.979,61.3375
869.617,156.004
870.255,149.67
870.892,213.336
871.530,-12.6646
872.168,133.335
872.805,99.3344
873.443,354.667
874.080,180.667
874.718,156
875.355,52
875.992,77.3333
876.629,-87.3333
877.267,-41.6667
877.904,-122.667
878.541,132.333
879.178,262.333
879.815,252.333
880.452,-10
881.088,-18.3333
881.725,66.6667
882.362,-36.6667
882.998,-142.333
883.635,226.667
884.271,277.333
884.908,277.667
885.544,-13.6667
886.181,140
886.817,206.333
887.453,109
888.089,71.6667
888.725,219
889.361,15.6667
889.997,255.667
890.633,141
891.269,116.667
891.905,-177
892.541,114
893.176,-33
893.812,244.667
894.448,256.667
895.083,66.3333
895.719,-129.333
896.354,101.667
896.989,-70.3333
897.625,0.333333
898.260,37.6667
898.895,51.6667
899.530,-52
900.165,246.333
900.800,349.667
901.435,181.667
902.070,114.667
902.705,115
903.339,43.6667
903.974,269.667
904.609,55
905.243,173.333
905.878,50.3333
906.512,210.667
907.146,186
907.781,350.667
908.415,52.3333
909.049,167
909.683,-86.3333
910.317,119.333
910.951,47.6667
911.585,305.333
912.219,329.667
912.853,199.667
913.487,-42
914.121,97
914.754,25
915.388,234.667
916.021,98.6667
916.655,103.667
917.288,149
917.922,256
918.555,-68.3333
919.188,18.6667
919.821,62.3333
920.454,208.667
921.088,339
921.721,226
922.353,118
922.986,77.3333
923.619,-8.66667
924.252,42
924.885,-67.6667
925.517,192
926.150,170.667
926.782,273
927.415,-5.66667
928.047,130.333
928.679,107
929.312,171
929.944,-39.3333
930.576,73.6667
931.208,58
931.840,154.333
932.472,2.33333
933.104,169.333
933.736,70
934.368,209.333
934.999,213.333
935.631,274.667
936.263,103
936.894,186
937.526,82.3333
938.157,184.333
938.788,22
939.420,383
940.051,165
940.682,101.667
941.313,23.3333
941.944,136
942.575,41.6667
943.206,-19.6667
943.837,-22
944.468,201
945.099,20.6667
945.729,167.333
946.360,111
946.991,442.333
947.621,96.6667
948.252,175.333
948.882,3
949.512,-82.3333
950.142,-106.667
950.773,183.667
951.403,-20
952.033,149.667
952.663,-29.6667
953.293,125.667
953.923,-17.6667
954.553,94.6667
955.182,-58
955.812,88
956.442,1.66667
957.071,175.333
957.701,128.333
958.330,212.333
958.960,133.333
959.589,149.667
960.218,-2.33333
960.848,174.667
961.477,-8.33333
962.106,144
962.735,25
963.364,113.333
963.993,-19
964.622,112.333
965.250,-11.3333
965.879,48
966.508,50.3333
967.136,140
967.765,85
968.393,224
969.022,130.667
969.650,284.667
970.278,-26.6667
970.907,213
971.535,-21.3333
972.163,92.3333
972.791,-41
973.419,305.667
974.047,89
974.675,121.667
975.302,165
975.930,257.333
976.558,638
977.185,305.333
977.813,128
978.441,223.667
979.068,-1
979.695,149.333
980.323,174.333
980.950,122.333
981.577,-111.333
982.204,123.333
982.831,-30.3333
983.458,44.6667
984.085,-135
984.712,164.667
985.339,35.6667
985.965,148
986.592,3
987.219,164
987.845,64.3333
988.472,166.333
989.098,127.667
989.725,202
990.351,-3.33333
990.977,142.667
991.603,-17
992.229,106.667
992.855,32.6667
993.481,323.667
994.107,177.667
994.733,156.333
995.359,-161.667
995.985,144
996.610,76.3333
997.236,128.333
997.862,160
998.487,138
999.113,96.6667
999.738,152.667
1000.363,-28.6667
1000.988,106
1001.614,-33.3333
1002.239,25
1002.864,-43.3333
1003.489,49.3333
1004.114,54
1004.738,87.3333
1005.363,-32
1005.988,65
1006.613,-41.6667
1007.237,219
1007.862,-38.6667
1008.486,186
1009.111,65
1009.735,148
1010.359,61.6667
1010.984,286.333
1011.608,193.667
1012.232,230.667
1012.856,21.3333
1013.480,243.667
1014.104,-12.3333
1014.728,115
1015.351,66.3333
1015.975,305.333
1016.599,36.3333
1017.222,254.333
1017.846,-17.3333
1018.469,83.6667
1019.093,-88.3333
1019.716,98.6667
1020.339,-70.6667
1020.963,273.333
1021.586,78
1022.209,201.333
1022.832,116.333
1023.455,71
1024.078,-62
1024.700,179
1025.323,30
1025.946,261.333
1026.569,110
1027.191,79.6667
1027.814,-35.3333
1028.436,-8.66667
1029.059,-33
1029.681,145.333
1030.303,-13.6667
1030.925,179
1031.547,99.6667
1032.169,323
1032.791,119
1033.413,244.333
1034.035,122.667
1034.657,272.667
1035.279,15.6667
1035.901,269.667
1036.522,45.3333
1037.144,24.6667
1037.765,-36.3333
1038.387,81
1039.008,28
1039.629,154.333
1040.250,102.667
1040.872,266
1041.493,-11
1042.114,298.333
1042.735,283.667
1043.356,410.333
1043.977,14.6667
1044.597,231
1045.218,76.6667
1045.839,259
1046.459,101.667
1047.080,55.6667
1047.700,-4.66667
1048.321,211.333
1048.941,-60.3333
1049.561,59.3333
1050.181,-183
1050.802,50
1051.422,106.333
1052.042,149.333
1052.662,-111.667
1053.281,133.667
1053.901,-39.3333
1054.521,251
1055.141,89.6667
1055.760,368
1056.380,648.667
1056.999,309
1057.619,215.333
1058.238,297.667
1058.857,296
1059.477,393.333
1060.096,219
1060.715,356
1061.334,221.333
1061.953,187.333
1062.572,51.6667
1063.191,208.333
1063.809,-32
1064.428,151.333
1065.047,-87.3333
1065.665,7.33333
1066.284,35.3333
1066.902,255
1067.521,82.3333
1068.139,109.667
1068.757,147
1069.376,123.667
1069.994,-103.333
1070.612,365
1071.230,32.3333
1071.848,86
1072.465,64
1073.083,275
1073.701,-35.6667
1074.319,177.667
1074.936,109
1075.554,232.667
1076.171,5.33333
1076.789,340
1077.406,45
1078.023,115.333
1078.641,-28.6667
1079.258,-7.66667
1079.875,-69
1080.492,199.333
1081.109,-82.6667
1081.726,88.6667
1082.342,2.33333
1082.959,269
1083.576,82
1084.192,445.667
1084.809,83
1085.426,277.667
1086.042,97.3333
1086.658,81.6667
1087.275,-80.6667
1087.891,146.667
1088.507,46.3333
1089.123,196.667
1089.739,-61.3333
1090.355,293.333
1090.971,81.3333
1091.587,142.333
1092.203,255
1092.818,185.667
1093.434,110.667
1094.049,280.333
1094.665,64
1095.280,252.667
1095.896,-112
1096.511,326
1097.126,220.333
1097.741,-2.33333
1098.357,-98.3333
1098.972,143.333
1099.587,38.6667
1100.202,329