File: water_electrode_1mm_first (Copy).csv
Wavelength [nm],Intensity
181.232,263.979
181.919,87.5652
182.607,62.9977
183.294,90.1526
183.981,131.697
184.668,39.493
185.355,114.674
186.043,-70.4329
186.730,221.456
187.417,-18.107
188.104,41.5719
188.791,77.8832
189.478,-50.2604
190.165,41.7145
190.851,-3.28522
191.538,77.5025
192.225,111.086
192.912,280.477
193.599,282.311
194.285,49.1917
194.972,261.466
195.659,208.985
196.345,196.543
197.032,103.998
197.718,109.168
198.405,-17.3366
199.091,144.167
199.777,-16.2386
200.464,65.3303
201.150,-39.319
201.836,107.406
202.523,70.4055
203.209,140.247
203.895,-95.4183
204.581,87.1293
205.267,172.642
205.953,193.968
206.639,20.7464
207.325,45.5787
208.011,-87.083
208.697,47.4361
209.383,34.4654
210.069,76.3353
210.755,55.1007
211.440,204.112
212.126,63.0316
212.812,216.012
213.497,206.803
214.183,316.338
214.868,162.085
215.554,178.356
216.239,44.8321
216.925,77.3995
217.610,-28.7298
218.296,159.8
218.981,-75.883
219.666,125.456
220.351,271.826
221.037,319.115
221.722,122.03
222.407,236.691
223.092,-32.7797
223.777,178.227
224.462,219.403
225.147,189.75
225.832,290.372
226.517,340.938
227.202,52.006
227.887,94.2496
228.571,-91.4276
229.256,1.38145
229.941,-0.0969846
230.626,106.314
231.310,203.847
231.995,272.261
232.679,43.0895
233.364,437.514
234.048,250.834
234.733,333.381
235.417,470.347
236.102,417.8
236.786,35.2341
237.470,185.403
238.154,-12.3499
238.839,144.371
239.523,219.778
240.207,238.354
240.891,2.48022
241.575,380.092
242.259,-58.6223
242.943,172.766
243.627,197.245
244.311,220.572
244.995,207.756
245.679,367.697
246.362,373.387
247.046,309.655
247.730,74.725
248.414,130.226
249.097,60.6701
249.781,345.519
250.464,39.4145
251.148,156.682
251.831,143.201
252.515,51.1709
253.198,25.0436
253.881,112.217
254.565,155.359
255.248,291.211
255.931,211.46
256.614,194.062
257.298,96.0444
257.981,255.34
258.664,32.7945
259.347,166.292
260.030,228.807
260.713,136.884
261.396,28.9328
262.079,99.6554
262.761,40.292
263.444,114.974
264.127,114.869
264.810,96.4381
265.492,267.796
266.175,429.262
266.858,202.535
267.540,57.8606
268.223,-71.8654
268.905,102.078
269.588,98.6792
270.270,171.952
270.952,136.907
271.635,234.073
272.317,121.337
272.999,197.221
273.681,-86.8587
274.364,263.871
275.046,113.438
275.728,269.922
276.410,311.142
277.092,578.251
277.774,192.814
278.456,501.511
279.138,259.782
279.820,392.888
280.501,488.886
281.183,583.519
281.865,743.994
282.546,819.819
283.228,517.057
283.910,324.663
284.591,199.707
285.273,385.95
285.954,224.271
286.636,401.204
287.317,393.168
287.999,587.354
288.680,186.372
289.361,335.609
290.042,122.663
290.724,319.372
291.405,201.208
292.086,423.848
292.767,541.411
293.448,904.261
294.129,1788.36
294.810,3618.96
295.491,6068.69
296.172,7812.09
296.853,8642.24
297.533,8132.39
298.214,3960.88
298.895,832.697
299.576,247.099
300.256,444.828
300.937,458.141
301.617,569.79
302.298,704.521
302.978,742.557
303.659,621.713
304.339,591.011
305.019,494.399
305.700,571.633
306.380,712.203
307.060,1057.67
307.740,1290.04
308.421,2002.44
309.101,2171.42
309.781,3386.1
310.461,5177.43
311.141,7945.81
311.821,10483.9
312.501,16752.2
313.180,25532.4
313.860,28187.8
314.540,38630.1
315.220,58683.2
315.899,58401.2
316.579,26640.5
317.259,3658.32
317.938,1973.73
318.618,1196.41
319.297,894.997
319.977,617.211
320.656,694.129
321.336,560.041
322.015,649.339
322.694,678.35
323.373,577.96
324.053,494.495
324.732,798.118
325.411,924.187
326.090,1604.76
326.769,1943.82
327.448,2687.66
328.127,3015.25
328.806,2500.23
329.485,1891.54
330.163,2299.36
330.842,2877.36
331.521,3020.68
332.200,3276.86
332.878,5005.01
333.557,7261.9
334.236,11986.2
334.914,26637.3
335.593,54021.8
336.271,62436.9
336.949,62436.4
337.628,62436.9
338.306,45895.8
338.984,14421.9
339.663,9528.85
340.341,7318.56
341.019,4816.68
341.697,3623.96
342.375,3888.47
343.053,3368.12
343.731,2462.08
344.409,2109.19
345.087,2473.73
345.765,2601.99
346.443,2663.95
347.121,2358.85
347.798,2427.77
348.476,2948.44
349.154,4348.51
349.831,4985.87
350.509,4827.54
351.186,5605.57
351.864,10952.9
352.541,20486
353.219,30955
353.896,28859.9
354.573,16079.7
355.251,17311.9
355.928,34835.2
356.605,57431
357.282,62436.9
357.959,62436.9
358.636,36091.8
359.313,10490.5
359.990,7192.06
360.667,4837.97
361.344,4269.52
362.021,3484.34
362.698,2828.82
363.375,2151.59
364.051,2549.51
364.728,2638.3
365.405,2825.44
366.081,2805.69
366.758,3140.95
367.434,2912.47
368.111,2158.32
368.787,2748.1
369.463,4844.61
370.140,8378.71
370.816,10710.5
371.492,6905
372.169,3391.86
372.845,4605.63
373.521,9196.48
374.197,18619.6
374.873,32291.2
375.549,32571.1
376.225,13386.2
376.901,3882.69
377.577,5492.33
378.253,10655.1
378.928,23041.1
379.604,43109.2
380.280,53719.2
380.955,30125.6
381.631,5272.9
382.307,1467.26
382.982,1110.87
383.658,945.95
384.333,1121.2
385.008,1218.55
385.684,1270.53
386.359,1021.55
387.034,1154.7
387.709,1698.74
388.385,2670.79
389.060,3582.56
389.735,4015.88
390.410,4206.89
391.085,5337.82
391.760,4654.92
392.435,3441.06
393.110,4731.35
393.784,7123.79
394.459,5720.71
395.134,2026.4
395.809,670.227
396.483,1442.65
397.158,2491.4
397.832,5123.07
398.507,9331.02
399.181,15393.7
399.856,14629.6
400.530,5393.14
401.205,1101.66
401.879,1150.65
402.553,1415.96
403.227,2479.66
403.902,4924.34
404.576,9258.76
405.250,15085.4
405.924,14889.3
406.598,5628.85
407.272,1106.65
407.946,489.958
408.620,622.386
409.293,596.03
409.967,397.593
410.641,287.855
411.315,372.748
411.988,554.052
412.662,861.209
413.335,1203.82
414.009,1391.03
414.682,605.928
415.356,225.544
416.029,80.2316
416.702,460.444
417.376,560.94
418.049,1138.58
418.722,1915.93
419.395,3005.86
420.068,3104.16
420.742,1359.76
421.415,283.052
422.088,595.574
422.760,515.826
423.433,881.241
424.106,1059.6
424.779,2095.23
425.452,3588.56
426.124,5734.35
426.797,6557.54
427.470,3854.82
428.142,1312.83
428.815,532.445
429.487,455.996
430.160,484.327
430.832,356.203
431.505,604.787
432.177,1281.76
432.849,2191.81
433.521,3226.51
434.194,4355.77
434.866,2572.33
435.538,546.165
436.210,423.873
436.882,324.214
437.554,161.907
438.226,564.055
438.898,476.342
439.569,441.128
440.241,230.948
440.913,348.957
441.584,437.312
442.256,306.584
442.928,255.961
443.599,267.14
444.271,168.457
444.942,286.17
445.614,292.607
446.285,310.535
446.956,256.13
447.628,841.88
448.299,976.758
448.970,1119.91
449.641,175.38
450.312,103.119
450.983,-1.5755
451.654,146.66
452.325,238.294
452.996,239.49
453.667,253.347
454.338,416.775
455.009,511.311
455.679,817.097
456.350,1131.91
457.021,1727.22
457.691,879.848
458.362,214.97
459.032,37.717
459.703,210.602
460.373,248.442
461.044,184.092
461.714,145.056
462.384,321.982
463.054,255.129
463.725,397.683
464.395,466.552
465.065,643.525
465.735,833.18
466.405,892.772
467.075,486.465
467.745,458.348
468.415,79.3458
469.084,222.439
469.754,123.547
470.424,288.46
471.094,256.039
471.763,339.211
472.433,241.885
473.102,397.607
473.772,64.1553
474.441,248.067
475.111,141.44
475.780,238.834
476.449,176.205
477.119,370.138
477.788,277.947
478.457,245.304
479.126,383.676
479.795,322.937
480.464,559.849
481.133,637.877
481.802,153.709
482.471,229.66
483.140,144.247
483.809,306.988
484.478,112.821
485.146,221.523
485.815,234.595
486.484,311.095
487.152,109.643
487.821,400.336
488.489,200.443
489.158,361.675
489.826,221.908
490.494,448.943
491.163,533.931
491.831,787.551
492.499,136.038
493.167,60.9569
493.835,192.732
494.503,341.655
495.171,107.453
495.839,132.463
496.507,190.371
497.175,426.126
497.843,98.6408
498.511,176.999
499.179,68.8997
499.846,260.112
500.514,150.807
501.181,152.326
501.849,120.479
502.517,364.021
503.184,351.159
503.851,392.318
504.519,67.1263
505.186,102.704
505.853,-44.9913
506.521,190.158
507.188,177.409
507.855,143.369
508.522,152.548
509.189,391.424
509.856,107.716
510.523,111.401
511.190,186.123
511.857,302.292
512.523,75.7794
513.190,401.772
513.857,390.45
514.523,128.34
515.190,-112.07
515.857,291.025
516.523,135.551
517.190,142.12
517.856,-26.0845
518.522,435.217
519.189,337.28
519.855,291.408
520.521,146.722
521.187,384.996
521.854,308.518
522.520,358.922
523.186,392.767
523.852,381.363
524.518,74.0118
525.183,234.388
525.849,317.14
526.515,599.157
527.181,29.7077
527.847,227.396
528.512,194.916
529.178,373.23
529.843,123.873
530.509,135.93
531.174,111.685
531.840,435.099
532.505,284.183
533.170,234.242
533.836,49.3469
534.501,187.616
535.166,55.0704
535.831,384.056
536.496,196.336
537.161,198.407
537.826,5.91777
538.491,314.362
539.156,106.697
539.821,430.073
540.486,186.599
541.151,184.52
541.815,85.3654
542.480,277.885
543.145,177.351
543.809,457.186
544.474,286.782
545.138,310.416
545.802,78.3827
546.467,191.576
547.131,150.424
547.795,112.443
548.460,115.372
549.124,341.33
549.788,183.782
550.452,267.115
551.116,187.132
551.780,475.7
552.444,206.449
553.108,228.659
553.772,193.469
554.435,260.258
555.099,245.467
555.763,341.317
556.426,206.643
557.090,214.389
557.754,205.381
558.417,293.937
559.080,-26.6561
559.744,296.201
560.407,175.549
561.071,284.17
561.734,167.99
562.397,386.064
563.060,248.752
563.723,348.627
564.386,285.035
565.049,175.093
565.712,84.8872
566.375,305.326
567.038,282.51
567.701,207.215
568.364,126.189
569.026,297.4
569.689,9.9376
570.352,75.2333
571.014,-45.7945
571.677,161.396
572.339,111.313
573.001,234.55
573.664,136.564
574.326,283.859
574.988,62.8088
575.651,194.803
576.313,176.997
576.975,464.849
577.637,127.874
578.299,221.398
578.961,129.988
579.623,342.095
580.285,180.312
580.947,182.008
581.608,26.8366
582.270,267.694
582.932,218.17
583.593,453.127
584.255,156.75
584.916,252.306
585.578,115.623
586.239,387.214
586.901,279.368
587.562,345.114
588.223,55.9208
588.885,88.0075
589.546,-197.293
590.207,208.258
590.868,224.471
591.529,348.155
592.190,200.706
592.851,191.316
593.512,-2.12959
594.173,263.822
594.833,121.519
595.494,183.13
596.155,78.6446
596.815,183.283
597.476,179.154
598.137,385.629
598.797,178.123
599.457,279.72
600.118,103.47
600.778,281.407
601.438,107.091
602.099,246.095
602.759,122.048
603.419,125.352
604.079,76.6112
604.739,418.704
605.399,309.108
606.059,372.055
606.719,126.728
607.379,202.638
608.039,16.7431
608.698,227.776
609.358,43.6062
610.018,109.11
610.677,89.9937
611.337,444.869
611.996,352.152
612.656,199.079
613.315,136.358
613.974,356.321
614.634,206.393
615.293,138.251
615.952,6.08496
616.611,130.539
617.270,-1.75716
617.929,169.437
618.588,177.389
619.247,175.852
619.906,-22.1105
620.565,253.967
621.224,105.773
621.882,199.186
622.541,49.7123
623.200,200.708
623.858,152.489
624.517,132.609
625.175,109.462
625.834,1112.22
626.492,-10.3709
627.150,54.018
627.809,-49.7617
628.467,291.692
629.125,263.769
629.783,317.162
630.441,330.409
631.099,286.043
631.757,101.305
632.415,46.5927
633.073,72.7055
633.731,178.855
634.388,200.557
635.046,254.497
635.704,-61.4231
636.361,152.987
637.019,122.819
637.676,119.405
638.334,382.086
638.991,416.286
639.649,169.084
640.306,113.195
640.963,19.1941
641.620,229.527
642.278,121.86
642.935,322.192
643.592,187.859
644.249,105.858
644.906,132.191
645.562,140.19
646.219,175.19
646.876,183.856
647.533,52.522
648.190,153.188
648.846,71.1876
649.503,161.187
650.159,238.853
650.816,287.519
651.472,180.852
652.129,275.852
652.785,229.851
653.441,400.517
654.097,243.85
654.753,156.183
655.410,292.182
656.066,301.515
656.722,142.514
657.378,248.847
658.034,284.18
658.689,504.513
659.345,567.846
660.001,602.845
660.657,391.178
661.312,480.177
661.968,380.177
662.623,506.51
663.279,204.509
663.934,107.842
664.590,97.508
665.245,308.174
665.900,313.507
666.556,660.173
667.211,329.506
667.866,422.172
668.521,497.171
669.176,542.838
669.831,336.17
670.486,424.836
671.141,166.169
671.796,113.169
672.450,89.8349
673.105,381.168
673.760,240.834
674.414,324.5
675.069,341.833
675.723,268.166
676.378,175.832
677.032,294.498
677.687,276.164
678.341,384.163
678.995,155.496
679.649,238.829
680.303,182.162
680.958,261.161
681.612,122.494
682.266,213.16
682.919,346.826
683.573,277.159
684.227,213.158
684.881,290.825
685.535,170.491
686.188,418.157
686.842,126.156
687.495,353.489
688.149,104.822
688.802,313.821
689.456,129.154
690.109,245.82
690.762,101.153
691.416,77.1526
692.069,8.48536
692.722,118.818
693.375,32.8176
694.028,83.1504
694.681,-162.85
695.334,51.4827
695.987,11.4821
696.640,68.1483
697.292,64.1477
697.945,167.147
698.598,-28.8534
699.250,182.479
699.903,79.8122
700.555,82.8117
701.208,25.1445
701.860,75.4773
702.513,128.477
703.165,308.81
703.817,86.1423
704.469,-105.858
705.121,-4.19209
705.774,180.474
706.426,150.473
707.077,-30.527
707.729,8.80575
708.381,200.472
709.033,189.471
709.685,17.1375
710.337,-65.8631
710.988,299.47
711.640,197.136
712.291,160.802
712.943,66.8014
713.594,26.1342
714.246,23.8004
714.897,133.466
715.548,141.133
716.199,268.132
716.851,181.465
717.502,246.798
718.153,155.13
718.804,152.797
719.455,18.796
720.106,242.129
720.756,144.128
721.407,280.128
722.058,15.4606
722.709,120.46
723.359,187.793
724.010,234.792
724.660,79.4584
725.311,384.458
725.961,244.457
726.612,149.79
727.262,-57.5438
727.912,13.4557
728.562,124.789
729.212,69.788
729.863,157.454
730.513,172.787
731.163,67.1197
731.812,201.452
732.462,-2.54807
733.112,186.451
733.762,263.784
734.412,348.784
735.061,129.783
735.711,245.116
736.360,192.449
737.010,411.448
737.659,298.114
738.309,319.78
738.958,155.447
739.607,138.446
740.257,30.7788
740.906,208.778
741.555,92.4444
742.204,58.7772
742.853,18.11
743.502,78.4428
744.151,201.776
744.800,357.775
745.448,277.774
746.097,291.774
746.746,235.773
747.394,405.106
748.043,358.106
748.691,433.105
749.340,115.771
749.988,409.771
750.637,432.77
751.285,383.436
751.933,226.769
752.581,249.102
753.229,117.101
753.878,177.434
754.526,76.7669
755.173,65.7664
755.821,50.4325
756.469,153.765
757.117,264.431
757.765,233.764
758.412,196.097
759.060,326.096
759.708,224.429
760.355,371.095
761.003,265.762
761.650,323.761
762.297,284.094
762.945,535.093
763.592,165.093
764.239,332.759
764.886,14.0916
765.533,194.758
766.180,74.7572
766.827,249.423
767.474,216.089
768.121,188.422
768.768,97.4217
769.415,324.421
770.061,280.754
770.708,359.42
771.355,123.753
772.001,469.752
772.648,268.085
773.294,338.085
773.940,301.084
774.587,514.75
775.233,254.083
775.879,218.416
776.525,136.749
777.171,312.415
777.817,197.748
778.463,130.414
779.109,48.7465
779.755,245.413
780.401,-70.9213
781.047,33.7448
781.692,-134.922
782.338,17.4104
782.984,105.743
783.629,299.409
784.275,266.742
784.920,207.742
785.565,122.408
786.211,493.407
786.856,171.74
787.501,260.739
788.146,222.406
788.791,271.072
789.436,-28.2622
790.081,-28.2627
790.726,-31.5966
791.371,118.07
792.016,-14.2643
792.661,124.735
793.305,37.4013
793.950,203.401
794.595,42.4002
795.239,72.0663
795.884,100.732
796.528,111.399
797.172,-24.2686
797.817,-39.9358
798.461,-167.603
799.105,133.063
799.749,70.7292
800.393,203.062
801.037,7.06146
801.681,82.7276
802.325,110.06
802.969,73.0598
803.613,80.0593
804.256,64.3921
804.900,90.3916
805.544,-61.2757
806.187,-45.6095
806.831,57.3899
807.474,17.0561
808.118,189.389
808.761,36.7217
809.404,62.3878
810.047,131.054
810.691,199.387
811.334,176.053
811.977,283.719
812.620,137.385
813.263,61.0512
813.906,93.7173
814.548,351.05
815.191,149.05
815.834,72.3824
816.477,160.715
817.119,237.048
817.762,163.047
818.404,32.7136
819.047,33.0464
819.689,191.046
820.331,89.0453
820.974,166.045
821.616,126.044
822.258,66.0437
822.900,-3.62354
823.542,126.376
824.184,132.709
824.826,71.0415
825.468,-31.959
826.110,243.707
826.751,163.04
827.393,163.373
828.035,9.03881
828.676,226.038
829.318,257.038
829.959,231.037
830.601,194.037
831.242,59.7028
831.883,99.0356
832.524,96.3684
833.166,82.3678
833.807,589.701
834.448,32.0334
835.089,61.3662
835.730,47.3657
836.371,158.032
837.011,24.6979
837.652,132.031
838.293,126.364
838.934,103.03
839.574,-40.6376
840.215,42.0286
840.855,13.6947
841.496,85.0275
842.136,193.027
842.776,172.693
843.417,-9.30746
844.057,-65.6413
844.697,-215.642
845.337,1.02426
845.977,-172.976
846.617,43.3565
847.257,131.689
847.897,151.022
848.536,81.3549
849.176,217.354
849.816,184.687
850.455,144.353
851.095,120.353
851.735,129.686
852.374,-29.315
853.013,243.351
853.653,201.017
854.292,211.35
854.931,57.6828
855.570,284.016
856.209,198.682
856.848,232.681
857.487,186.681
858.126,237.68
858.765,94.0129
859.404,138.679
860.043,-70.9881
860.681,202.678
861.320,133.011
861.959,183.01
862.597,110.343
863.236,156.676
863.874,123.342
864.512,292.008
865.151,174.008
865.789,389.34
866.427,69.3398
867.065,144.673
867.703,171.005
868.341,286.338
868.979,116.671
869.617,164.67
870.255,146.337
870.892,198.003
871.530,34.3355
872.168,180.002
872.805,108.334
873.443,305.667
874.080,130.333
874.718,135
875.355,14
875.992,77
876.629,-50.6667
877.267,-1.33333
877.904,-138
878.541,108
879.178,191
879.815,209
880.452,-70.3333
881.088,27.6667
881.725,111.333
882.362,-45.3333
882.998,-106.333
883.635,271.333
884.271,249.667
884.908,215
885.544,-16
886.181,148
886.817,144.667
887.453,87.6667
888.089,96.6667
888.725,171
889.361,11.3333
889.997,241
890.633,123.333
891.269,182.333
891.905,-89.3333
892.541,69
893.176,-61.3333
893.812,252.667
894.448,137.333
895.083,24.3333
895.719,-120.667
896.354,100
896.989,4.33333
897.625,66.3333
898.260,65.3333
898.895,30.3333
899.530,-142.333
900.165,213.333
900.800,320.667
901.435,254
902.070,81
902.705,109.333
903.339,24
903.974,217.333
904.609,44
905.243,146.667
905.878,62
906.512,152.667
907.146,192.667
907.781,326.333
908.415,42.6667
909.049,60
909.683,-121.667
910.317,109.667
910.951,46.3333
911.585,236.667
912.219,185.667
912.853,135.667
913.487,19.6667
914.121,73.6667
914.754,-24
915.388,204.667
916.021,134
916.655,89
917.288,150.333
917.922,219.333
918.555,-89.6667
919.188,-31
919.821,53
920.454,254.333
921.088,305
921.721,212.667
922.353,67.6667
922.986,59
923.619,-59
924.252,-132
924.885,-92
925.517,234
926.150,207
926.782,269.667
927.415,-57.3333
928.047,103
928.679,51.3333
929.312,186.667
929.944,-50
930.576,48
931.208,92.6667
931.840,116.333
932.472,-95
933.104,139.667
933.736,102.667
934.368,193.667
934.999,208.333
935.631,177.333
936.263,81.6667
936.894,211.667
937.526,134.667
938.157,204.667
938.788,31.3333
939.420,293.333
940.051,125.333
940.682,26
941.313,13.6667
941.944,141.667
942.575,20
943.206,-7
943.837,-59.3333
944.468,147
945.099,-10.3333
945.729,194
946.360,64.6667
946.991,328
947.621,70.6667
948.252,191
948.882,-43.6667
949.512,-99.6667
950.142,-103.667
950.773,128.333
951.403,-13
952.033,122
952.663,-34
953.293,88.3333
953.923,-15
954.553,128.333
955.182,-32
955.812,70.6667
956.442,45
957.071,173.667
957.701,66
958.330,156
958.960,123
959.589,111
960.218,32.6667
960.848,102.667
961.477,10.3333
962.106,170
962.735,-5.33333
963.364,54.6667
963.993,-45.6667
964.622,113
965.250,-6.33333
965.879,54.6667
966.508,24.6667
967.136,79
967.765,26.6667
968.393,236.667
969.022,149.333
969.650,230
970.278,-13.6667
970.907,207.333
971.535,-25.6667
972.163,99.3333
972.791,-48.3333
973.419,183.333
974.047,23.6667
974.675,142
975.302,121
975.930,93.6667
976.558,529.667
977.185,184.667
977.813,80.6667
978.441,224
979.068,78.6667
979.695,105.333
980.323,104
980.950,79
981.577,-104.333
982.204,61.6667
982.831,-56.6667
983.458,26.3333
984.085,-181.333
984.712,59
985.339,-70.6667
985.965,97.3333
986.592,-48
987.219,110.667
987.845,20
988.472,165.333
989.098,136
989.725,150.333
990.351,-35.3333
990.977,138.667
991.603,19.3333
992.229,169.333
992.855,-13.6667
993.481,231.667
994.107,103.667
994.733,69.3333
995.359,-162
995.985,116.667
996.610,30.6667
997.236,108.333
997.862,72
998.487,163.333
999.113,66
999.738,71
1000.363,-41.3333
1000.988,69.6667
1001.614,-119.667
1002.239,8.33333
1002.864,3
1003.489,55.3333
1004.114,77
1004.738,45.6667
1005.363,-78
1005.988,31.6667
1006.613,-50
1007.237,232
1007.862,34.6667
1008.486,158
1009.111,-36
1009.735,121.333
1010.359,67
1010.984,251.333
1011.608,181
1012.232,198.333
1012.856,3.33333
1013.480,200
1014.104,-9.66667
1014.728,35.3333
1015.351,18.3333
1015.975,193.333
1016.599,-54.3333
1017.222,180.667
1017.846,15.6667
1018.469,34.3333
1019.093,-59.6667
1019.716,-7.66667
1020.339,-36.6667
1020.963,220.333
1021.586,7.33333
1022.209,176.333
1022.832,211
1023.455,88.3333
1024.078,-103.333
1024.700,79.6667
1025.323,-38
1025.946,230.333
1026.569,72.3333
1027.191,82.6667
1027.814,-1.66667
1028.436,-16.3333
1029.059,-84
1029.681,119.333
1030.303,-28.6667
1030.925,142
1031.547,106.667
1032.169,246.333
1032.791,125.333
1033.413,157
1034.035,105.333
1034.657,210.333
1035.279,-5.33333
1035.901,203.333
1036.522,102.333
1037.144,-30
1037.765,-100
1038.387,134.333
1039.008,21.3333
1039.629,118.667
1040.250,47.6667
1040.872,223
1041.493,24.3333
1042.114,214.333
1042.735,156.333
1043.356,296
1043.977,-4.66667
1044.597,147
1045.218,7.66667
1045.839,248.667
1046.459,78.3333
1047.080,14
1047.700,-100.667
1048.321,68.6667
1048.941,-102
1049.561,35
1050.181,-237.667
1050.802,-23
1051.422,144.333
1052.042,121.667
1052.662,-52.3333
1053.281,134.333
1053.901,-70.3333
1054.521,278.667
1055.141,147.333
1055.760,286.333
1056.380,556.333
1056.999,294.667
1057.619,175.333
1058.238,260.333
1058.857,221.333
1059.477,409.667
1060.096,173
1060.715,322.667
1061.334,207
1061.953,150.667
1062.572,22.3333
1063.191,206
1063.809,-18.6667
1064.428,62.6667
1065.047,-196.333
1065.665,3
1066.284,30.3333
1066.902,257.667
1067.521,129
1068.139,30
1068.757,104.667
1069.376,145.667
1069.994,-112
1070.612,275.667
1071.230,57.3333
1071.848,126.333
1072.465,75
1073.083,267.333
1073.701,7.66667
1074.319,164.333
1074.936,116.333
1075.554,236.667
1076.171,30
1076.789,393.333
1077.406,81.6667
1078.023,75.3333
1078.641,-38
1079.258,62
1079.875,-147.333
1080.492,187
1081.109,-59.6667
1081.726,100.667
1082.342,-14.6667
1082.959,145
1083.576,58.3333
1084.192,344.667
1084.809,52
1085.426,206.667
1086.042,67.6667
1086.658,62.3333
1087.275,-81
1087.891,153.667
1088.507,2.66667
1089.123,124
1089.739,-86.6667
1090.355,203.333
1090.971,9.33333
1091.587,111
1092.203,177
1092.818,97.3333
1093.434,115.667
1094.049,138
1094.665,-43.3333
1095.280,202.333
1095.896,-86
1096.511,314.333
1097.126,165.333
1097.741,18.3333
1098.357,-88.6667
1098.972,110
1099.587,58.6667
1100.202,287